* Measurement data measured by REW V5.20.13
* Source: Headset Microphone (Realtek(R) Audio), MICROPHONE (Hauptlautstärke), L, volume: 1,000
* Format: 256k Log Swept Sine, 1 sweep at -8,0 dBFS with no timing reference
* Dated: 28.06.2023 14:22:57
* REW Settings:
*  C-weighting compensation: Off
*  Target level: 75.0 dB
* Note: 
* Measurement: ej07 r
* Smoothing: 1/12 octave
* Frequency Step: 1/48 octave
* Start Frequency: 20.000 Hz
*
* Freq(Hz)	SPL(dB)	Phase(degrees)
20.000000	116.784	-6.0582
20.299999	116.740	-6.5388
20.600000	116.693	-6.9370
20.900000	116.650	-7.2743
21.200001	116.614	-7.5877
21.400000	116.594	-7.8059
21.799999	116.563	-8.2953
22.000000	116.549	-8.5775
22.400000	116.520	-9.2197
22.700001	116.494	-9.7517
23.000000	116.464	-10.3003
23.299999	116.430	-10.8411
23.600000	116.396	-11.3598
24.000000	116.355	-12.0101
24.299999	116.330	-12.4776
24.700001	116.308	-13.0991
25.000000	116.295	-13.5776
25.400000	116.280	-14.2297
25.799999	116.262	-14.8644
26.200001	116.239	-15.4340
26.500000	116.222	-15.8012
26.900000	116.204	-16.2155
27.200001	116.195	-16.4900
27.600000	116.189	-16.8399
28.000000	116.184	-17.1932
28.500000	116.173	-17.6324
29.000000	116.155	-18.0411
29.500000	116.135	-18.4259
30.000000	116.116	-18.8385
30.400000	116.099	-19.2198
30.700001	116.082	-19.5388
31.100000	116.053	-19.9972
31.500000	116.016	-20.4767
32.000000	115.958	-21.0799
32.500000	115.893	-21.6595
33.000000	115.824	-22.1868
33.500000	115.758	-22.6517
34.000000	115.705	-23.0799
34.500000	115.663	-23.5231
35.000000	115.629	-24.0167
35.500000	115.594	-24.5538
36.000000	115.551	-25.0928
36.500000	115.503	-25.5925
37.000000	115.451	-26.0344
37.500000	115.401	-26.4252
38.200001	115.332	-26.9180
38.700001	115.283	-27.2481
39.500000	115.204	-27.7508
40.000000	115.152	-28.0512
40.599998	115.087	-28.3952
41.200001	115.022	-28.7127
41.799999	114.961	-29.0149
42.500000	114.899	-29.4237
43.099998	114.844	-29.8926
43.700001	114.770	-30.4314
44.400002	114.653	-30.9668
45.000000	114.546	-31.2314
45.500000	114.471	-31.3490
46.200001	114.395	-31.5074
46.799999	114.347	-31.7338
47.500000	114.295	-32.1028
48.200001	114.241	-32.5351
48.700001	114.200	-32.8613
49.400002	114.137	-33.3140
50.000000	114.080	-33.6756
50.799999	114.003	-34.1132
51.500000	113.934	-34.4656
52.200001	113.863	-34.7892
53.000000	113.779	-35.1196
53.799999	113.694	-35.4165
54.500000	113.618	-35.6534
55.200001	113.542	-35.8684
56.000000	113.458	-36.0937
57.000000	113.361	-36.3725
58.000000	113.267	-36.6803
59.000000	113.170	-36.9916
60.000000	113.070	-37.2517
60.799999	112.991	-37.4330
61.500000	112.921	-37.5910
62.200001	112.849	-37.7475
63.000000	112.764	-37.9116
64.000000	112.657	-38.0928
65.000000	112.554	-38.2729
66.000000	112.453	-38.4636
67.000000	112.356	-38.6529
68.000000	112.261	-38.8314
69.000000	112.168	-38.9935
70.000000	112.074	-39.1328
71.000000	111.978	-39.2463
72.000000	111.881	-39.3392
73.000000	111.781	-39.4223
74.000000	111.679	-39.5018
75.000000	111.576	-39.5738
76.199997	111.454	-39.6408
77.500000	111.325	-39.6877
78.800003	111.203	-39.7120
80.000000	111.092	-39.7128
81.199997	110.981	-39.6858
82.500000	110.863	-39.6297
83.800003	110.747	-39.5681
85.000000	110.643	-39.5226
86.199997	110.538	-39.4768
87.500000	110.426	-39.4128
88.500000	110.341	-39.3565
90.000000	110.211	-39.2603
91.199997	110.103	-39.1522
92.500000	109.989	-38.9978
93.800003	109.881	-38.8254
95.000000	109.788	-38.6607
96.199997	109.702	-38.4885
97.500000	109.617	-38.3014
98.800003	109.532	-38.1297
100.000000	109.440	-37.9557
101.500000	109.306	-37.6264
103.000000	109.165	-37.1857
104.400002	109.037	-36.7760
106.000000	108.899	-36.3914
107.500000	108.781	-36.1174
109.000000	108.678	-35.8814
110.599998	108.578	-35.5916
112.000000	108.495	-35.2444
113.800003	108.386	-34.6566
115.000000	108.311	-34.2217
117.199997	108.169	-33.4736
118.000000	108.119	-33.2331
120.599998	107.970	-32.5120
122.000000	107.899	-32.1020
124.099998	107.791	-31.4046
125.000000	107.740	-31.0833
126.500000	107.651	-30.5469
128.000000	107.558	-30.0367
131.500000	107.365	-28.9317
132.000000	107.341	-28.7695
134.000000	107.255	-28.0787
136.000000	107.170	-27.3236
138.000000	107.080	-26.5216
140.000000	106.991	-25.6909
143.000000	106.874	-24.3545
145.000000	106.814	-23.3713
147.500000	106.766	-22.0979
150.000000	106.747	-20.8934
152.500000	106.748	-19.8551
155.000000	106.761	-19.0269
157.500000	106.775	-18.3921
160.000000	106.778	-17.8823
162.500000	106.764	-17.3855
165.000000	106.739	-16.8373
167.500000	106.710	-16.2351
170.000000	106.680	-15.6066
172.500000	106.651	-14.9752
175.000000	106.623	-14.3417
177.500000	106.596	-13.6824
180.000000	106.574	-13.0022
182.500000	106.557	-12.3245
185.000000	106.544	-11.6604
187.500000	106.534	-11.0148
190.000000	106.524	-10.3796
192.500000	106.517	-9.7491
195.000000	106.520	-9.1268
197.500000	106.530	-8.5035
200.000000	106.543	-7.8566
203.000000	106.564	-7.0411
206.000000	106.593	-6.2352
209.000000	106.628	-5.5010
212.000000	106.665	-4.8629
214.000000	106.691	-4.4894
218.000000	106.743	-3.8384
220.000000	106.767	-3.5465
224.000000	106.804	-2.9984
227.000000	106.826	-2.5854
230.000000	106.845	-2.1413
233.000000	106.863	-1.6693
236.000000	106.880	-1.1972
240.000000	106.903	-0.5967
243.000000	106.922	-0.1591
247.000000	106.950	0.4411
250.000000	106.973	0.9162
254.000000	107.007	1.5630
258.000000	107.047	2.1914
262.000000	107.098	2.7993
265.000000	107.140	3.2366
269.000000	107.198	3.7583
272.000000	107.244	4.0880
276.000000	107.308	4.4574
280.000000	107.370	4.7760
285.000000	107.440	5.1282
290.000000	107.500	5.4374
295.000000	107.552	5.7179
300.000000	107.599	5.9798
304.000000	107.633	6.1785
307.000000	107.658	6.3232
311.000000	107.688	6.5170
315.000000	107.717	6.7178
320.000000	107.750	6.9833
325.000000	107.781	7.2596
330.000000	107.812	7.5366
335.000000	107.842	7.8058
340.000000	107.872	8.0643
345.000000	107.901	8.3117
350.000000	107.932	8.5519
355.000000	107.962	8.7940
360.000000	107.992	9.0382
365.000000	108.021	9.2757
370.000000	108.048	9.5032
375.000000	108.075	9.7239
382.000000	108.111	10.0233
387.000000	108.136	10.2288
395.000000	108.176	10.5468
400.000000	108.200	10.7456
406.000000	108.228	10.9870
412.000000	108.256	11.2239
418.000000	108.284	11.4497
425.000000	108.315	11.7054
431.000000	108.342	11.9234
437.000000	108.368	12.1388
444.000000	108.397	12.3861
450.000000	108.421	12.5981
455.000000	108.440	12.7753
462.000000	108.466	13.0208
468.000000	108.488	13.2293
475.000000	108.514	13.4695
482.000000	108.538	13.7056
487.000000	108.555	13.8725
494.000000	108.578	14.1036
500.000000	108.597	14.3016
508.000000	108.623	14.5699
515.000000	108.646	14.8075
522.000000	108.668	15.0437
530.000000	108.693	15.3107
538.000000	108.716	15.5760
545.000000	108.736	15.8061
552.000000	108.757	16.0339
560.000000	108.780	16.2934
570.000000	108.809	16.6214
580.000000	108.837	16.9658
590.000000	108.863	17.3218
600.000000	108.889	17.6764
608.000000	108.910	17.9596
615.000000	108.927	18.2107
622.000000	108.944	18.4676
630.000000	108.963	18.7665
640.000000	108.986	19.1396
650.000000	109.012	19.5088
660.000000	109.039	19.8836
670.000000	109.067	20.2716
680.000000	109.096	20.6654
690.000000	109.126	21.0575
700.000000	109.156	21.4470
710.000000	109.189	21.8334
720.000000	109.222	22.2165
730.000000	109.256	22.5998
740.000000	109.290	22.9886
750.000000	109.324	23.3859
762.000000	109.366	23.8742
775.000000	109.414	24.4156
788.000000	109.464	24.9614
800.000000	109.514	25.4591
812.000000	109.567	25.9544
825.000000	109.628	26.4963
838.000000	109.694	27.0381
850.000000	109.758	27.5322
862.000000	109.824	28.0223
875.000000	109.897	28.5446
885.000000	109.956	28.9334
900.000000	110.048	29.4948
912.000000	110.125	29.9297
925.000000	110.213	30.3872
938.000000	110.303	30.8278
950.000000	110.389	31.2169
962.000000	110.477	31.5883
975.000000	110.573	31.9737
988.000000	110.672	32.3372
1000.000000	110.766	32.6422
1015.000000	110.887	32.9752
1030.000000	111.010	33.2671
1044.000000	111.125	33.5107
1060.000000	111.256	33.7545
1075.000000	111.378	33.9455
1090.000000	111.500	34.0971
1106.000000	111.631	34.2179
1120.000000	111.743	34.2923
1138.000000	111.884	34.3494
1150.000000	111.976	34.3651
1172.000000	112.141	34.3487
1180.000000	112.199	34.3297
1206.000000	112.385	34.2271
1220.000000	112.481	34.1489
1241.000000	112.622	34.0040
1250.000000	112.680	33.9327
1265.000000	112.774	33.8037
1280.000000	112.866	33.6647
1315.000000	113.069	33.3150
1320.000000	113.097	33.2632
1340.000000	113.205	33.0530
1360.000000	113.309	32.8370
1380.000000	113.411	32.6130
1400.000000	113.509	32.3835
1430.000000	113.652	32.0333
1450.000000	113.743	31.7981
1475.000000	113.854	31.5061
1500.000000	113.963	31.2175
1525.000000	114.069	30.9315
1550.000000	114.173	30.6450
1575.000000	114.274	30.3548
1600.000000	114.374	30.0597
1625.000000	114.473	29.7587
1650.000000	114.572	29.4542
1675.000000	114.670	29.1477
1700.000000	114.768	28.8354
1725.000000	114.865	28.5128
1750.000000	114.961	28.1797
1775.000000	115.057	27.8403
1800.000000	115.151	27.4964
1825.000000	115.244	27.1463
1850.000000	115.337	26.7860
1875.000000	115.429	26.4118
1900.000000	115.522	26.0203
1925.000000	115.616	25.6075
1950.000000	115.711	25.1713
1975.000000	115.805	24.7094
2000.000000	115.897	24.2174
2030.000000	116.005	23.5844
2060.000000	116.107	22.9109
2090.000000	116.205	22.2032
2120.000000	116.297	21.4653
2140.000000	116.355	20.9583
2180.000000	116.464	19.9127
2200.000000	116.514	19.3753
2240.000000	116.608	18.2743
2270.000000	116.670	17.4280
2300.000000	116.726	16.5657
2330.000000	116.774	15.6889
2360.000000	116.816	14.7995
2400.000000	116.861	13.6016
2430.000000	116.887	12.7001
2470.000000	116.912	11.4972
2500.000000	116.922	10.5959
2540.000000	116.925	9.4007
2580.000000	116.916	8.2212
2620.000000	116.894	7.0646
2650.000000	116.871	6.2154
2690.000000	116.831	5.1125
2720.000000	116.794	4.3130
2760.000000	116.735	3.2927
2800.000000	116.666	2.3347
2850.000000	116.569	1.2446
2900.000000	116.463	0.2986
2950.000000	116.353	-0.4816
3000.000000	116.250	-1.0808
3040.000000	116.183	-1.4416
3070.000000	116.145	-1.6687
3110.000000	116.116	-1.9666
3150.000000	116.109	-2.3301
3200.000000	116.119	-2.9738
3250.000000	116.127	-3.8618
3300.000000	116.116	-4.9267
3350.000000	116.079	-6.0533
3400.000000	116.019	-7.1492
3450.000000	115.944	-8.1694
3500.000000	115.865	-9.1072
3550.000000	115.785	-9.9784
3600.000000	115.708	-10.8092
3650.000000	115.635	-11.6221
3700.000000	115.566	-12.4303
3750.000000	115.501	-13.2401
3820.000000	115.416	-14.3905
3870.000000	115.359	-15.2373
3950.000000	115.274	-16.6699
4000.000000	115.224	-17.6348
4060.000000	115.165	-18.8817
4120.000000	115.101	-20.2345
4180.000000	115.029	-21.6937
4250.000000	114.926	-23.5117
4310.000000	114.817	-25.1313
4370.000000	114.687	-26.7666
4440.000000	114.512	-28.6549
4500.000000	114.345	-30.2395
4550.000000	114.195	-31.5341
4620.000000	113.970	-33.3086
4680.000000	113.763	-34.7910
4750.000000	113.504	-36.4572
4820.000000	113.225	-38.0283
4870.000000	113.013	-39.0790
4940.000000	112.700	-40.4334
5000.000000	112.417	-41.4729
5080.000000	112.021	-42.6607
5150.000000	111.657	-43.4811
5220.000000	111.280	-44.0521
5300.000000	110.841	-44.3467
5380.000000	110.404	-44.2340
5450.000000	110.037	-43.8155
5520.000000	109.694	-43.1339
5600.000000	109.339	-42.0889
5700.000000	108.951	-40.4727
5800.000000	108.622	-38.5943
5900.000000	108.352	-36.5004
6000.000000	108.143	-34.2153
6080.000000	108.022	-32.2699
6150.000000	107.948	-30.4961
6220.000000	107.906	-28.6638
6300.000000	107.899	-26.5109
6400.000000	107.952	-23.7631
6500.000000	108.078	-20.9947
6600.000000	108.280	-18.2497
6700.000000	108.564	-15.5813
6800.000000	108.934	-13.0590
6900.000000	109.397	-10.7680
7000.000000	109.958	-8.8091
7100.000000	110.620	-7.3154
7200.000000	111.377	-6.4721
7300.000000	112.213	-6.5204
7400.000000	113.095	-7.7442
7500.000000	113.964	-10.4379
7620.000000	114.887	-15.9031
7750.000000	115.586	-24.4720
7880.000000	115.836	-34.8026
8000.000000	115.632	-44.3965
8120.000000	115.058	-52.6823
8250.000000	114.144	-59.3519
8380.000000	113.082	-63.5788
8500.000000	112.084	-65.7131
8620.000000	111.141	-66.6353
8750.000000	110.219	-66.7552
8850.000000	109.585	-66.4818
9000.000000	108.741	-65.7819
9120.000000	108.131	-65.1055
9250.000000	107.507	-64.2764
9380.000000	106.897	-63.2683
9500.000000	106.338	-62.0613
9620.000000	105.787	-60.4772
9750.000000	105.220	-58.2703
9880.000000	104.718	-55.5928
10000.000000	104.341	-52.8410
10150.000000	104.009	-49.3231
10300.000000	103.823	-46.0931
10440.000000	103.743	-43.6159
10600.000000	103.698	-41.5672
10750.000000	103.638	-40.3480
10900.000000	103.514	-39.5927
11060.000000	103.282	-38.9547
11200.000000	102.992	-38.2425
11380.000000	102.516	-36.7690
11500.000000	102.151	-35.3113
11720.000000	101.431	-31.5220
11800.000000	101.165	-29.7886
12060.000000	100.337	-22.9779
12200.000000	99.936	-18.6665
12410.000000	99.418	-11.5328
12500.000000	99.232	-8.2759
12650.000000	98.972	-2.6413
12800.000000	98.779	3.1909
13150.000000	98.605	17.2000
13200.000000	98.613	19.2143
13400.000000	98.731	27.2284
13600.000000	98.993	35.0888
13800.000000	99.406	42.6735
14000.000000	99.987	49.8458
14300.000000	101.208	59.4422
14500.000000	102.264	64.6740
14750.000000	103.806	69.1539
15000.000000	105.435	70.3087
15250.000000	106.892	67.2080
15500.000000	107.923	59.9589
15750.000000	108.369	50.2052
16000.000000	108.206	40.5398
16250.000000	107.549	33.2011
16500.000000	106.600	29.0673
16750.000000	105.571	27.7421
17000.000000	104.616	28.2391
17250.000000	103.799	29.5384
17500.000000	103.099	30.8589
17750.000000	102.440	31.7669
18000.000000	101.732	32.2039
18250.000000	100.898	32.4441
18500.000000	99.891	32.9724
18750.000000	98.706	34.2707
19000.000000	97.372	36.5862
19250.000000	95.954	39.7708
19500.000000	94.551	43.2601
19750.000000	93.320	46.2471
