* Measurement data measured by REW V5.20.13
* Source: Headset Microphone (Realtek(R) Audio), MICROPHONE (Hauptlautstärke), L, volume: 1,000
* Format: 256k Log Swept Sine, 1 sweep at -8,0 dBFS with no timing reference
* Dated: 20.08.2023 14:12:16
* REW Settings:
*  C-weighting compensation: Off
*  Target level: 75.0 dB
* Note: 
* Measurement: realme Air 5 Harpo Custom
* Smoothing: 1/12 octave
* Frequency Step: 1/48 octave
* Start Frequency: 20.000 Hz
*
* Freq(Hz)	SPL(dB)	Phase(degrees)
20.000000	114.594	-138.1076
20.299999	114.649	-138.3813
20.600000	114.706	-138.7159
20.900000	114.756	-139.0993
21.200001	114.799	-139.4943
21.400000	114.824	-139.7462
21.799999	114.872	-140.2181
22.000000	114.895	-140.4418
22.400000	114.944	-140.8868
22.700001	114.980	-141.2306
23.000000	115.014	-141.5797
23.299999	115.046	-141.9195
23.600000	115.076	-142.2399
24.000000	115.119	-142.6337
24.299999	115.154	-142.9151
24.700001	115.206	-143.2946
25.000000	115.247	-143.5934
25.400000	115.300	-144.0119
25.799999	115.350	-144.4385
26.200001	115.395	-144.8534
26.500000	115.426	-145.1471
26.900000	115.464	-145.5085
27.200001	115.491	-145.7559
27.600000	115.528	-146.0588
28.000000	115.564	-146.3432
28.500000	115.607	-146.6929
29.000000	115.644	-147.0415
29.500000	115.675	-147.3738
30.000000	115.702	-147.6833
30.400000	115.724	-147.9319
30.700001	115.741	-148.1333
31.100000	115.760	-148.4337
31.500000	115.775	-148.7682
32.000000	115.781	-149.2049
32.500000	115.773	-149.6124
33.000000	115.758	-149.9355
33.500000	115.742	-150.1333
34.000000	115.739	-150.1949
34.500000	115.763	-150.1744
35.000000	115.818	-150.1807
35.500000	115.893	-150.3249
36.000000	115.969	-150.6327
36.500000	116.031	-151.0365
37.000000	116.077	-151.4373
37.500000	116.116	-151.7869
38.200001	116.167	-152.2150
38.700001	116.203	-152.5088
39.500000	116.254	-152.9623
40.000000	116.284	-153.2384
40.599998	116.319	-153.5866
41.200001	116.348	-153.9611
41.799999	116.370	-154.3361
42.500000	116.393	-154.7460
43.099998	116.413	-155.0835
43.700001	116.434	-155.4271
44.400002	116.457	-155.8392
45.000000	116.475	-156.1926
45.500000	116.487	-156.4772
46.200001	116.503	-156.8460
46.799999	116.517	-157.1326
47.500000	116.536	-157.4581
48.200001	116.557	-157.8108
48.700001	116.570	-158.0832
49.400002	116.580	-158.4688
50.000000	116.585	-158.7818
50.799999	116.590	-159.1784
51.500000	116.593	-159.5206
52.200001	116.594	-159.8422
53.000000	116.597	-160.1581
53.799999	116.610	-160.4491
54.500000	116.627	-160.7278
55.200001	116.647	-161.0398
56.000000	116.666	-161.4268
57.000000	116.681	-161.9268
58.000000	116.686	-162.3781
59.000000	116.692	-162.7612
60.000000	116.702	-163.1427
60.799999	116.709	-163.4716
61.500000	116.712	-163.7699
62.200001	116.713	-164.0679
63.000000	116.711	-164.3998
64.000000	116.710	-164.8032
65.000000	116.712	-165.2181
66.000000	116.712	-165.6606
67.000000	116.709	-166.1144
68.000000	116.702	-166.5586
69.000000	116.690	-166.9795
70.000000	116.675	-167.3661
71.000000	116.659	-167.7230
72.000000	116.643	-168.0679
73.000000	116.626	-168.4140
74.000000	116.606	-168.7640
75.000000	116.585	-169.1137
76.199997	116.559	-169.5323
77.500000	116.530	-169.9861
78.800003	116.498	-170.4267
80.000000	116.466	-170.8194
81.199997	116.430	-171.2079
82.500000	116.386	-171.6272
83.800003	116.340	-172.0442
85.000000	116.296	-172.4297
86.199997	116.252	-172.8056
87.500000	116.207	-173.1866
88.500000	116.173	-173.4631
90.000000	116.116	-173.8677
91.199997	116.061	-174.1801
92.500000	115.991	-174.5042
93.800003	115.921	-174.8501
95.000000	115.861	-175.2242
96.199997	115.810	-175.6638
97.500000	115.760	-176.2006
98.800003	115.705	-176.7306
100.000000	115.638	-177.0867
101.500000	115.545	-177.2382
103.000000	115.457	-177.1953
104.400002	115.376	-177.1562
106.000000	115.279	-177.2065
107.500000	115.186	-177.3392
109.000000	115.095	-177.5132
110.599998	114.998	-177.6813
112.000000	114.913	-177.7810
113.800003	114.797	-177.8616
115.000000	114.715	-177.9052
117.199997	114.562	-177.9918
118.000000	114.508	-178.0268
120.599998	114.339	-178.1125
122.000000	114.253	-178.1146
124.099998	114.126	-178.0444
125.000000	114.072	-177.9906
126.500000	113.984	-177.8858
128.000000	113.895	-177.7775
131.500000	113.681	-177.5081
132.000000	113.649	-177.4626
134.000000	113.518	-177.2547
136.000000	113.385	-177.0136
138.000000	113.254	-176.7557
140.000000	113.127	-176.4824
143.000000	112.953	-176.0000
145.000000	112.845	-175.6267
147.500000	112.702	-175.1254
150.000000	112.544	-174.6062
152.500000	112.376	-174.0740
155.000000	112.210	-173.4754
157.500000	112.051	-172.7560
160.000000	111.902	-171.9475
162.500000	111.756	-171.1831
165.000000	111.596	-170.4976
167.500000	111.427	-169.6997
170.000000	111.278	-168.6197
172.500000	111.172	-167.2582
175.000000	111.107	-165.7839
177.500000	111.078	-164.3969
180.000000	111.079	-163.2388
182.500000	111.094	-162.3631
185.000000	111.103	-161.7370
187.500000	111.094	-161.2626
190.000000	111.071	-160.8506
192.500000	111.041	-160.4471
195.000000	111.001	-160.0095
197.500000	110.951	-159.5080
200.000000	110.896	-158.9502
203.000000	110.829	-158.2565
206.000000	110.758	-157.5993
209.000000	110.684	-157.0149
212.000000	110.609	-156.4567
214.000000	110.562	-156.0599
218.000000	110.473	-155.1797
220.000000	110.429	-154.7100
224.000000	110.342	-153.7532
227.000000	110.280	-153.0297
230.000000	110.219	-152.2993
233.000000	110.158	-151.5632
236.000000	110.096	-150.8236
240.000000	110.016	-149.8404
243.000000	109.960	-149.1124
247.000000	109.894	-148.1383
250.000000	109.846	-147.4093
254.000000	109.777	-146.4528
258.000000	109.708	-145.4851
262.000000	109.640	-144.4960
265.000000	109.584	-143.7583
269.000000	109.498	-142.8424
272.000000	109.428	-142.2359
276.000000	109.336	-141.5020
280.000000	109.252	-140.7221
285.000000	109.163	-139.4259
290.000000	109.085	-137.9272
295.000000	109.029	-136.6073
300.000000	108.984	-135.4538
304.000000	108.939	-134.6156
307.000000	108.897	-134.0334
311.000000	108.831	-133.2613
315.000000	108.763	-132.4134
320.000000	108.680	-131.2206
325.000000	108.598	-129.9716
330.000000	108.518	-128.7498
335.000000	108.440	-127.5747
340.000000	108.366	-126.4295
345.000000	108.295	-125.3021
350.000000	108.225	-124.2153
355.000000	108.160	-123.1455
360.000000	108.097	-122.0221
365.000000	108.028	-120.7916
370.000000	107.949	-119.4982
375.000000	107.871	-118.2260
382.000000	107.773	-116.5120
387.000000	107.704	-115.3198
395.000000	107.586	-113.4312
400.000000	107.510	-112.2392
406.000000	107.422	-110.8002
412.000000	107.342	-109.3889
418.000000	107.268	-108.0056
425.000000	107.181	-106.3879
431.000000	107.102	-104.9849
437.000000	107.018	-103.5603
444.000000	106.916	-101.8769
450.000000	106.828	-100.4183
455.000000	106.758	-99.1884
462.000000	106.663	-97.4365
468.000000	106.580	-95.9100
475.000000	106.489	-94.1111
482.000000	106.405	-92.2979
487.000000	106.349	-91.0048
494.000000	106.275	-89.2029
500.000000	106.218	-87.6541
508.000000	106.148	-85.5675
515.000000	106.083	-83.7570
522.000000	106.012	-81.9921
530.000000	105.926	-79.9869
538.000000	105.845	-77.9721
545.000000	105.781	-76.2252
552.000000	105.722	-74.4937
560.000000	105.656	-72.5004
570.000000	105.569	-69.9716
580.000000	105.482	-67.4244
590.000000	105.396	-64.8943
600.000000	105.310	-62.3980
608.000000	105.239	-60.4120
615.000000	105.179	-58.6617
622.000000	105.123	-56.8837
630.000000	105.066	-54.8164
640.000000	105.002	-52.2177
650.000000	104.939	-49.6332
660.000000	104.867	-47.0547
670.000000	104.791	-44.4959
680.000000	104.717	-41.9497
690.000000	104.652	-39.3858
700.000000	104.595	-36.7945
710.000000	104.542	-34.1798
720.000000	104.493	-31.5499
730.000000	104.446	-28.9042
740.000000	104.404	-26.2607
750.000000	104.367	-23.6368
762.000000	104.328	-20.5019
775.000000	104.289	-17.1167
788.000000	104.254	-13.7590
800.000000	104.228	-10.6674
812.000000	104.208	-7.5771
825.000000	104.190	-4.2437
838.000000	104.175	-0.9100
850.000000	104.166	2.1890
862.000000	104.164	5.2928
875.000000	104.171	8.6306
885.000000	104.180	11.1868
900.000000	104.199	15.0073
912.000000	104.220	18.0243
925.000000	104.246	21.2434
938.000000	104.277	24.4412
950.000000	104.310	27.3895
962.000000	104.346	30.3242
975.000000	104.389	33.4758
988.000000	104.435	36.6036
1000.000000	104.480	39.4721
1015.000000	104.542	43.0082
1030.000000	104.611	46.4749
1044.000000	104.679	49.6641
1060.000000	104.757	53.2753
1075.000000	104.830	56.6314
1090.000000	104.905	59.9510
1106.000000	104.990	63.4434
1120.000000	105.067	66.4568
1138.000000	105.169	70.2770
1150.000000	105.237	72.7947
1172.000000	105.360	77.3560
1180.000000	105.405	78.9952
1206.000000	105.550	84.2483
1220.000000	105.626	87.0342
1241.000000	105.739	91.1724
1250.000000	105.787	92.9362
1265.000000	105.868	95.8629
1280.000000	105.948	98.7679
1315.000000	106.134	105.4511
1320.000000	106.161	106.3979
1340.000000	106.267	110.1748
1360.000000	106.372	113.9335
1380.000000	106.475	117.6646
1400.000000	106.580	121.3674
1430.000000	106.740	126.8772
1450.000000	106.847	130.5120
1475.000000	106.982	135.0116
1500.000000	107.117	139.4795
1525.000000	107.254	143.9283
1550.000000	107.392	148.3553
1575.000000	107.535	152.7574
1600.000000	107.683	157.1330
1625.000000	107.840	161.4666
1650.000000	108.012	165.6701
1675.000000	108.200	169.5487
1700.000000	108.397	172.9068
1725.000000	108.600	175.6661
1750.000000	108.809	177.9054
1775.000000	109.015	179.7983
1800.000000	109.209	-178.5113
1825.000000	109.390	-176.9427
1850.000000	109.559	-175.4531
1875.000000	109.719	-174.0254
1900.000000	109.874	-172.6608
1925.000000	110.024	-171.3672
1950.000000	110.169	-170.1510
1975.000000	110.309	-169.0135
2000.000000	110.443	-167.9547
2030.000000	110.595	-166.7920
2060.000000	110.735	-165.7476
2090.000000	110.862	-164.8097
2120.000000	110.971	-163.9578
2140.000000	111.035	-163.4286
2180.000000	111.140	-162.4474
2200.000000	111.181	-161.9902
2240.000000	111.244	-161.1357
2270.000000	111.271	-160.5369
2300.000000	111.278	-159.9495
2330.000000	111.264	-159.3348
2360.000000	111.229	-158.6413
2400.000000	111.161	-157.4998
2430.000000	111.107	-156.4242
2470.000000	111.062	-154.6836
2500.000000	111.072	-153.2312
2540.000000	111.162	-151.3705
2580.000000	111.323	-149.9658
2620.000000	111.494	-149.2421
2650.000000	111.593	-149.0949
2690.000000	111.663	-149.1905
2720.000000	111.669	-149.3163
2760.000000	111.630	-149.3945
2800.000000	111.558	-149.2987
2850.000000	111.449	-148.9601
2900.000000	111.336	-148.4724
2950.000000	111.222	-147.9009
3000.000000	111.110	-147.2604
3040.000000	111.023	-146.7067
3070.000000	110.961	-146.2757
3110.000000	110.883	-145.6913
3150.000000	110.811	-145.1085
3200.000000	110.730	-144.4020
3250.000000	110.658	-143.7296
3300.000000	110.594	-143.0940
3350.000000	110.540	-142.5093
3400.000000	110.495	-141.9944
3450.000000	110.459	-141.5626
3500.000000	110.428	-141.2205
3550.000000	110.402	-140.9749
3600.000000	110.377	-140.8303
3650.000000	110.351	-140.7807
3700.000000	110.323	-140.8094
3750.000000	110.294	-140.8981
3820.000000	110.255	-141.1111
3870.000000	110.231	-141.3329
3950.000000	110.203	-141.8414
4000.000000	110.190	-142.2756
4060.000000	110.176	-142.9298
4120.000000	110.162	-143.7310
4180.000000	110.145	-144.6704
4250.000000	110.118	-145.9308
4310.000000	110.087	-147.1429
4370.000000	110.046	-148.4571
4440.000000	109.983	-150.0856
4500.000000	109.918	-151.5402
4550.000000	109.858	-152.7810
4620.000000	109.769	-154.5450
4680.000000	109.689	-156.0710
4750.000000	109.595	-157.8599
4820.000000	109.506	-159.6582
4870.000000	109.448	-160.9561
4940.000000	109.379	-162.8114
5000.000000	109.335	-164.4585
5080.000000	109.298	-166.7803
5150.000000	109.287	-168.9799
5220.000000	109.291	-171.3851
5300.000000	109.305	-174.4134
5380.000000	109.324	-177.7048
5450.000000	109.354	179.1903
5520.000000	109.395	175.7104
5600.000000	109.416	171.1356
5700.000000	109.339	164.8056
5800.000000	109.135	158.2996
5900.000000	108.823	152.0163
6000.000000	108.449	146.1744
6080.000000	108.141	141.7472
6150.000000	107.868	137.9621
6220.000000	107.585	134.2760
6300.000000	107.255	130.2445
6400.000000	106.850	125.4974
6500.000000	106.475	121.0100
6600.000000	106.143	116.6860
6700.000000	105.862	112.4284
6800.000000	105.635	108.1579
6900.000000	105.461	103.8148
7000.000000	105.337	99.3517
7100.000000	105.259	94.7446
7200.000000	105.230	89.9984
7300.000000	105.258	85.1194
7400.000000	105.358	80.0756
7500.000000	105.552	74.7683
7620.000000	105.931	67.7755
7750.000000	106.513	58.8892
7880.000000	107.214	47.9395
8000.000000	107.864	35.3891
8120.000000	108.376	20.0944
8250.000000	108.590	0.6331
8380.000000	108.290	-20.4198
8500.000000	107.506	-39.2216
8620.000000	106.296	-55.7316
8750.000000	104.658	-70.2471
8850.000000	103.290	-79.1702
9000.000000	101.253	-89.7467
9120.000000	99.753	-96.5388
9250.000000	98.330	-102.8928
9380.000000	97.141	-108.6915
9500.000000	96.250	-113.8817
9620.000000	95.540	-119.1622
9750.000000	94.940	-125.1971
9880.000000	94.471	-131.7115
10000.000000	94.108	-138.2024
10150.000000	93.685	-146.8418
10300.000000	93.242	-155.6440
10440.000000	92.806	-163.4655
10600.000000	92.356	-171.4783
10750.000000	92.105	-178.1389
10900.000000	92.126	175.5136
11060.000000	92.475	168.3569
11200.000000	93.012	161.3112
11380.000000	93.926	150.8397
11500.000000	94.634	142.9202
11720.000000	96.076	126.5187
11800.000000	96.640	119.9697
12060.000000	98.601	96.4904
12200.000000	99.720	82.3420
12410.000000	101.416	58.8299
12500.000000	102.123	47.8130
12650.000000	103.232	28.0873
12800.000000	104.202	6.6452
13150.000000	105.676	-48.5833
13200.000000	105.785	-56.7875
13400.000000	105.985	-89.4691
13600.000000	105.886	-121.0809
13800.000000	105.625	-151.0631
14000.000000	105.342	-179.5002
14300.000000	105.106	139.7662
14500.000000	105.172	113.1521
14750.000000	105.573	79.6214
15000.000000	106.340	44.8654
15250.000000	107.420	7.7302
15500.000000	108.648	-33.2328
15750.000000	109.730	-79.4481
16000.000000	110.321	-131.1543
16250.000000	110.164	173.8005
16500.000000	109.186	119.2756
16750.000000	107.505	68.3732
17000.000000	105.325	22.1443
17250.000000	102.846	-19.6451
17500.000000	100.231	-57.5245
17750.000000	97.631	-92.0958
18000.000000	95.220	-124.2219
18250.000000	93.204	-155.1062
18500.000000	91.750	173.9473
18750.000000	90.879	141.8989
19000.000000	90.461	108.2797
19250.000000	90.311	73.5471
19500.000000	90.272	39.7389
19750.000000	90.257	11.1978
